{
    "resourceType": "Bundle",
    "id": "bundle-4",
    "type": "message",
    "timestamp": "2025-09-20T11:54:22.310567",
    "entry": [
        {
            "fullUrl": "MessageHeader/msg-4",
            "resource": {
                "resourceType": "MessageHeader",
                "id": "msg-4",
                "eventCoding": {
                    "system": "http://hl7.org/fhir/message-events",
                    "code": "exam-result"
                },
                "source": {
                    "name": "MPHC Pediatrics System",
                    "endpoint": "https://acme.example.org/fhir"
                },
                "focus": [
                    {
                        "reference": "DiagnosticReport/dr-4"
                    }
                ]
            }
        },
        {
            "fullUrl": "Encounter/encounter-4",
            "resource": {
                "resourceType": "Encounter",
                "id": "encounter-4",
                "status": "planned",
                "basedOn": [
                    {
                        "reference": "ServiceRequest/sr-4"
                    }
                ],
                "subject": {
                    "reference": "Patient/patient-4"
                },
                "diagnosis": [
                    {
                        "condition": {
                            "reference": ""
                        }
                    }
                ]
            }
        },
        {
            "fullUrl": "ServiceRequest/sr-4",
            "resource": {
                "resourceType": "ServiceRequest",
                "id": "sr-4",
                "identifier": [
                    {
                        "system": "http://hospital.smarthealthit.org/placer-order-ids",
                        "value": "sr-3004"
                    }
                ],
                "status": "active",
                "intent": "order",
                "subject": {
                    "reference": "Patient/patient-4"
                },
                "encounter": {
                    "reference": "Encounter/encounter-4"
                },
                "requester": {
                    "reference": "Practitioner/doctor-4"
                },
                "performer": {
                    "reference": "Organization/hospital-4"
                },
                "specimen": [
                    {
                        "reference": ""
                    }
                ],
                "code": {
                    "coding": [
                        {
                            "system": "http://snomed.info/exam-code",
                            "code": "CBC",
                            "display": "Complete blood count"
                        }
                    ]
                },
                "quantityQuantity": {
                    "value": 1
                }
            }
        },
        {
            "fullUrl": "Organization/hospital-4",
            "resource": {
                "resourceType": "Organization",
                "id": "hospital-4",
                "name": "Miami Pediatric Health Center",
                "endpoint": {
                    "reference": "Endpoint/endpoint-4"
                }
            }
        },
        {
            "fullUrl": "Practitioner/doctor-4",
            "resource": {
                "resourceType": "Practitioner",
                "id": "doctor-4",
                "gender": "Male",
                "active": "true",
                "name": [
                    {
                        "use": "official",
                        "family": "Wilson",
                        "given": [
                            "David"
                        ]
                    }
                ],
                "address": [
                    {
                        "use": "home",
                        "type": "both",
                        "text": "202 Pine St, Miami, FL 33101",
                        "line": [
                            "202 Pine St"
                        ],
                        "city": "Miami",
                        "state": "FL",
                        "postalCode": "33101"
                    }
                ],
                "telecom": [
                    {
                        "system": "phone",
                        "value": "555-777-8888",
                        "use": "mobile"
                    }
                ]
            }
        },
        {
            "fullUrl": "Patient/patient-4",
            "resource": {
                "resourceType": "Patient",
                "id": "patient-4",
                "gender": "Female",
                "active": "true",
                "birthDate": "2020-11-05",
                "name": [
                    {
                        "use": "official",
                        "family": "Davis",
                        "given": [
                            "Emily"
                        ]
                    }
                ],
                "telecom": [
                    {
                        "system": "phone",
                        "value": "555-444-5555",
                        "use": "mobile"
                    }
                ],
                "address": [
                    {
                        "use": "home",
                        "type": "both",
                        "text": "101 Oak St, Miami, FL 33101",
                        "line": [
                            "101 Oak St"
                        ],
                        "city": "Miami",
                        "state": "FL",
                        "postalCode": "33101"
                    }
                ],
                "identifier": [
                    {
                        "use": "usual",
                        "type": {
                            "coding": [
                                {
                                    "system": "http://terminology.hl7.org/CodeSystem/v2-0203",
                                    "code": "MR"
                                }
                            ]
                        },
                        "system": "urn:oid:1.2.36.146.595.217.0.1",
                        "value": "pat-1004",
                        "period": {
                            "start": "2001-05-06"
                        },
                        "assigner": {
                            "display": "Acme Healthcare"
                        }
                    }
                ]
            }
        },
        {
            "fullUrl": "Endpoint/endpoint-4",
            "resource": {
                "resourceType": "Endpoint",
                "id": "endpoint-4",
                "status": "active",
                "connectionType": {
                    "system": "http://terminology.hl7.org/CodeSystem/endpoint-connection-type",
                    "code": "hl7-fhir-rest"
                },
                "address": "https://acme.example.org/fhir"
            }
        },
        {
            "fullUrl": "DiagnosticReport/dr-4",
            "resource": {
                "resourceType": "DiagnosticReport",
                "id": "dr-4",
                "patient": {
                    "reference": "Patient/patient-4"
                },
                "encounter": {
                    "reference": "Encounter/encounter-4"
                },
                "performer": {
                    "reference": "Organization/hospital-4"
                },
                "result": [
                    {
                        "reference": "Observation/obs-4-1"
                    },
                    {
                        "reference": "Observation/obs-4-2"
                    }
                ],
                "status": "final"
            }
        },
        {
            "fullUrl": "Observation/obs-4-1",
            "resource": {
                "resourceType": "Observation",
                "id": "obs-4-1",
                "status": "final",
                "code": {
                    "coding": [
                        {
                            "system": "http://result-code",
                            "code": "High",
                            "display": "Leukocytosis indicating infection"
                        }
                    ]
                },
                "subject": {
                    "reference": "Patient/patient-4"
                },
                "effectiveDateTime": "2025-12-28T14:10:00Z",
                "performer": [
                    {
                        "reference": "Organization/hospital-4"
                    }
                ],
                "valueQuantity": {
                    "value": 14.2,
                    "unit": "x10^9/L",
                    "system": "http://snomed.info/sct",
                    "code": "6690-2",
                    "display": "Leukocytes [#/volume] in Blood"
                }
            }
        },
        {
            "fullUrl": "Observation/obs-4-2",
            "resource": {
                "resourceType": "Observation",
                "id": "obs-4-2",
                "status": "final",
                "code": {
                    "coding": [
                        {
                            "system": "http://result-code",
                            "code": "Positive",
                            "display": "Positive for viral gastroenteritis"
                        }
                    ]
                },
                "subject": {
                    "reference": "Patient/patient-4"
                },
                "effectiveDateTime": "2025-12-28T14:20:00Z",
                "performer": [
                    {
                        "reference": "Organization/hospital-4"
                    }
                ],
                "valueQuantity": {
                    "value": 1,
                    "unit": "N/A",
                    "system": "http://snomed.info/sct",
                    "code": "15152-2",
                    "display": "Stool culture result"
                }
            }
        }
    ]
}