{
    "resourceType": "Bundle",
    "id": "bundle-1",
    "type": "message",
    "timestamp": "2025-09-20T11:54:22.286611",
    "entry": [
        {
            "fullUrl": "MessageHeader/msg-1",
            "resource": {
                "resourceType": "MessageHeader",
                "id": "msg-1",
                "eventCoding": {
                    "system": "http://hl7.org/fhir/message-events",
                    "code": "exam-result"
                },
                "source": {
                    "name": "NYGH Rheumatology System",
                    "endpoint": "https://acme.example.org/fhir"
                },
                "focus": [
                    {
                        "reference": "DiagnosticReport/dr-1"
                    }
                ]
            }
        },
        {
            "fullUrl": "Encounter/encounter-1",
            "resource": {
                "resourceType": "Encounter",
                "id": "encounter-1",
                "status": "planned",
                "basedOn": [
                    {
                        "reference": "ServiceRequest/sr-1"
                    }
                ],
                "subject": {
                    "reference": "Patient/patient-1"
                },
                "diagnosis": [
                    {
                        "condition": {
                            "reference": ""
                        }
                    }
                ]
            }
        },
        {
            "fullUrl": "ServiceRequest/sr-1",
            "resource": {
                "resourceType": "ServiceRequest",
                "id": "sr-1",
                "identifier": [
                    {
                        "system": "http://hospital.smarthealthit.org/placer-order-ids",
                        "value": "sr-3001"
                    }
                ],
                "status": "active",
                "intent": "order",
                "subject": {
                    "reference": "Patient/patient-1"
                },
                "encounter": {
                    "reference": "Encounter/encounter-1"
                },
                "requester": {
                    "reference": "Practitioner/doctor-1"
                },
                "performer": {
                    "reference": "Organization/hospital-1"
                },
                "specimen": [
                    {
                        "reference": ""
                    }
                ],
                "code": {
                    "coding": [
                        {
                            "system": "http://snomed.info/exam-code",
                            "code": "CRP",
                            "display": "C-reactive protein test"
                        }
                    ]
                },
                "quantityQuantity": {
                    "value": 1
                }
            }
        },
        {
            "fullUrl": "Organization/hospital-1",
            "resource": {
                "resourceType": "Organization",
                "id": "hospital-1",
                "name": "New York General Hospital",
                "endpoint": {
                    "reference": "Endpoint/endpoint-1"
                }
            }
        },
        {
            "fullUrl": "Practitioner/doctor-1",
            "resource": {
                "resourceType": "Practitioner",
                "id": "doctor-1",
                "gender": "Female",
                "active": "true",
                "name": [
                    {
                        "use": "official",
                        "family": "Smith",
                        "given": [
                            "Alice"
                        ]
                    }
                ],
                "address": [
                    {
                        "use": "home",
                        "type": "both",
                        "text": "456 Elm St, New York, NY 10204",
                        "line": [
                            "456 Elm St"
                        ],
                        "city": "New York",
                        "state": "NY",
                        "postalCode": "10204"
                    }
                ],
                "telecom": [
                    {
                        "system": "phone",
                        "value": "555-123-4567",
                        "use": "mobile"
                    }
                ]
            }
        },
        {
            "fullUrl": "Patient/patient-1",
            "resource": {
                "resourceType": "Patient",
                "id": "patient-1",
                "gender": "Male",
                "active": "true",
                "birthDate": "1990-01-01",
                "name": [
                    {
                        "use": "official",
                        "family": "Doe",
                        "given": [
                            "John"
                        ]
                    }
                ],
                "telecom": [
                    {
                        "system": "phone",
                        "value": "555-555-5555",
                        "use": "mobile"
                    }
                ],
                "address": [
                    {
                        "use": "home",
                        "type": "both",
                        "text": "123 Main St, New York, NY 10001",
                        "line": [
                            "123 Main St"
                        ],
                        "city": "New York",
                        "state": "NY",
                        "postalCode": "10001"
                    }
                ],
                "identifier": [
                    {
                        "use": "usual",
                        "type": {
                            "coding": [
                                {
                                    "system": "http://terminology.hl7.org/CodeSystem/v2-0203",
                                    "code": "MR"
                                }
                            ]
                        },
                        "system": "urn:oid:1.2.36.146.595.217.0.1",
                        "value": "pat-1001",
                        "period": {
                            "start": "2001-05-06"
                        },
                        "assigner": {
                            "display": "Acme Healthcare"
                        }
                    }
                ]
            }
        },
        {
            "fullUrl": "Endpoint/endpoint-1",
            "resource": {
                "resourceType": "Endpoint",
                "id": "endpoint-1",
                "status": "active",
                "connectionType": {
                    "system": "http://terminology.hl7.org/CodeSystem/endpoint-connection-type",
                    "code": "hl7-fhir-rest"
                },
                "address": "https://acme.example.org/fhir"
            }
        },
        {
            "fullUrl": "DiagnosticReport/dr-1",
            "resource": {
                "resourceType": "DiagnosticReport",
                "id": "dr-1",
                "patient": {
                    "reference": "Patient/patient-1"
                },
                "encounter": {
                    "reference": "Encounter/encounter-1"
                },
                "performer": {
                    "reference": "Organization/hospital-1"
                },
                "result": [
                    {
                        "reference": "Observation/obs-1-1"
                    },
                    {
                        "reference": "Observation/obs-1-2"
                    }
                ],
                "status": "final"
            }
        },
        {
            "fullUrl": "Observation/obs-1-1",
            "resource": {
                "resourceType": "Observation",
                "id": "obs-1-1",
                "status": "final",
                "code": {
                    "coding": [
                        {
                            "system": "http://result-code",
                            "code": "High",
                            "display": "Elevated C-reactive protein"
                        }
                    ]
                },
                "subject": {
                    "reference": "Patient/patient-1"
                },
                "effectiveDateTime": "2025-12-25T09:15:00Z",
                "performer": [
                    {
                        "reference": "Organization/hospital-1"
                    }
                ],
                "valueQuantity": {
                    "value": 25,
                    "unit": "mg/L",
                    "system": "http://snomed.info/sct",
                    "code": "1988-5",
                    "display": "C reactive protein [Mass/volume] in Serum or Plasma"
                }
            }
        },
        {
            "fullUrl": "Observation/obs-1-2",
            "resource": {
                "resourceType": "Observation",
                "id": "obs-1-2",
                "status": "final",
                "code": {
                    "coding": [
                        {
                            "system": "http://result-code",
                            "code": "Positive",
                            "display": "Positive rheumatoid factor"
                        }
                    ]
                },
                "subject": {
                    "reference": "Patient/patient-1"
                },
                "effectiveDateTime": "2025-12-25T09:20:00Z",
                "performer": [
                    {
                        "reference": "Organization/hospital-1"
                    }
                ],
                "valueQuantity": {
                    "value": 60,
                    "unit": "IU/mL",
                    "system": "http://snomed.info/sct",
                    "code": "26515-7",
                    "display": "Rheumatoid factor [Units/volume] in Serum"
                }
            }
        }
    ]
}