{
    "resourceType": "Bundle",
    "id": "bundle-3",
    "type": "message",
    "timestamp": "2025-09-20T11:54:22.301941",
    "entry": [
        {
            "fullUrl": "MessageHeader/msg-3",
            "resource": {
                "resourceType": "MessageHeader",
                "id": "msg-3",
                "eventCoding": {
                    "system": "http://hl7.org/fhir/message-events",
                    "code": "exam-result"
                },
                "source": {
                    "name": "TOC Dermatology System",
                    "endpoint": "https://acme.example.org/fhir"
                },
                "focus": [
                    {
                        "reference": "DiagnosticReport/dr-3"
                    }
                ]
            }
        },
        {
            "fullUrl": "Encounter/encounter-3",
            "resource": {
                "resourceType": "Encounter",
                "id": "encounter-3",
                "status": "planned",
                "basedOn": [
                    {
                        "reference": "ServiceRequest/sr-3"
                    }
                ],
                "subject": {
                    "reference": "Patient/patient-3"
                },
                "diagnosis": [
                    {
                        "condition": {
                            "reference": ""
                        }
                    }
                ]
            }
        },
        {
            "fullUrl": "ServiceRequest/sr-3",
            "resource": {
                "resourceType": "ServiceRequest",
                "id": "sr-3",
                "identifier": [
                    {
                        "system": "http://hospital.smarthealthit.org/placer-order-ids",
                        "value": "sr-3003"
                    }
                ],
                "status": "active",
                "intent": "order",
                "subject": {
                    "reference": "Patient/patient-3"
                },
                "encounter": {
                    "reference": "Encounter/encounter-3"
                },
                "requester": {
                    "reference": "Practitioner/doctor-3"
                },
                "performer": {
                    "reference": "Organization/hospital-3"
                },
                "specimen": [
                    {
                        "reference": ""
                    }
                ],
                "code": {
                    "coding": [
                        {
                            "system": "http://snomed.info/exam-code",
                            "code": "DERM-PATH",
                            "display": "Dermatopathology examination"
                        }
                    ]
                },
                "quantityQuantity": {
                    "value": 1
                }
            }
        },
        {
            "fullUrl": "Organization/hospital-3",
            "resource": {
                "resourceType": "Organization",
                "id": "hospital-3",
                "name": "Texas Oncology Center",
                "endpoint": {
                    "reference": "Endpoint/endpoint-3"
                }
            }
        },
        {
            "fullUrl": "Practitioner/doctor-3",
            "resource": {
                "resourceType": "Practitioner",
                "id": "doctor-3",
                "gender": "Female",
                "active": "true",
                "name": [
                    {
                        "use": "official",
                        "family": "Miller",
                        "given": [
                            "Sarah"
                        ]
                    }
                ],
                "address": [
                    {
                        "use": "home",
                        "type": "both",
                        "text": "987 Oak Place, Austin, TX 78701",
                        "line": [
                            "987 Oak Place"
                        ],
                        "city": "Austin",
                        "state": "TX",
                        "postalCode": "78701"
                    }
                ],
                "telecom": [
                    {
                        "system": "phone",
                        "value": "555-444-5555",
                        "use": "mobile"
                    }
                ]
            }
        },
        {
            "fullUrl": "Patient/patient-3",
            "resource": {
                "resourceType": "Patient",
                "id": "patient-3",
                "gender": "Male",
                "active": "true",
                "birthDate": "1992-07-20",
                "name": [
                    {
                        "use": "official",
                        "family": "Brown",
                        "given": [
                            "Michael"
                        ]
                    }
                ],
                "telecom": [
                    {
                        "system": "phone",
                        "value": "555-222-3333",
                        "use": "mobile"
                    }
                ],
                "address": [
                    {
                        "use": "home",
                        "type": "both",
                        "text": "789 Pine St, Houston, TX 77001",
                        "line": [
                            "789 Pine St"
                        ],
                        "city": "Houston",
                        "state": "TX",
                        "postalCode": "77001"
                    }
                ],
                "identifier": [
                    {
                        "use": "usual",
                        "type": {
                            "coding": [
                                {
                                    "system": "http://terminology.hl7.org/CodeSystem/v2-0203",
                                    "code": "MR"
                                }
                            ]
                        },
                        "system": "urn:oid:1.2.36.146.595.217.0.1",
                        "value": "pat-1003",
                        "period": {
                            "start": "2001-05-06"
                        },
                        "assigner": {
                            "display": "Acme Healthcare"
                        }
                    }
                ]
            }
        },
        {
            "fullUrl": "Endpoint/endpoint-3",
            "resource": {
                "resourceType": "Endpoint",
                "id": "endpoint-3",
                "status": "active",
                "connectionType": {
                    "system": "http://terminology.hl7.org/CodeSystem/endpoint-connection-type",
                    "code": "hl7-fhir-rest"
                },
                "address": "https://acme.example.org/fhir"
            }
        },
        {
            "fullUrl": "DiagnosticReport/dr-3",
            "resource": {
                "resourceType": "DiagnosticReport",
                "id": "dr-3",
                "patient": {
                    "reference": "Patient/patient-3"
                },
                "encounter": {
                    "reference": "Encounter/encounter-3"
                },
                "performer": {
                    "reference": "Organization/hospital-3"
                },
                "result": [
                    {
                        "reference": "Observation/obs-3-1"
                    }
                ],
                "status": "final"
            }
        },
        {
            "fullUrl": "Observation/obs-3-1",
            "resource": {
                "resourceType": "Observation",
                "id": "obs-3-1",
                "status": "final",
                "code": {
                    "coding": [
                        {
                            "system": "http://result-code",
                            "code": "Positive",
                            "display": "Malignant melanoma cells present"
                        }
                    ]
                },
                "subject": {
                    "reference": "Patient/patient-3"
                },
                "effectiveDateTime": "2025-12-27T11:15:00Z",
                "performer": [
                    {
                        "reference": "Organization/hospital-3"
                    }
                ],
                "valueQuantity": {
                    "value": 1,
                    "unit": "N/A",
                    "system": "http://snomed.info/sct",
                    "code": "33717-0",
                    "display": "Histopathology finding"
                }
            }
        }
    ]
}