{
    "resourceType": "Bundle",
    "id": "bundle-3",
    "type": "message",
    "timestamp": "2025-09-20T11:54:22.250339",
    "entry": [
        {
            "fullUrl": "MessageHeader/msg-3",
            "resource": {
                "resourceType": "MessageHeader",
                "id": "msg-3",
                "eventCoding": {
                    "system": "http://hl7.org/fhir/message-events",
                    "code": "exam-request"
                },
                "source": {
                    "name": "TOC Dermatology System",
                    "endpoint": "https://acme.example.org/fhir"
                },
                "focus": [
                    {
                        "reference": "Encounter/encounter-3"
                    },
                    {
                        "reference": "AllergyIntolerance/allergy-3"
                    }
                ]
            }
        },
        {
            "fullUrl": "Encounter/encounter-3",
            "resource": {
                "resourceType": "Encounter",
                "id": "encounter-3",
                "status": "planned",
                "basedOn": [
                    {
                        "reference": "ServiceRequest/sr-3"
                    }
                ],
                "subject": {
                    "reference": "Patient/patient-3"
                },
                "diagnosis": [
                    {
                        "condition": {
                            "reference": "Condition/condition-3"
                        }
                    }
                ]
            }
        },
        {
            "fullUrl": "AllergyIntolerance/allergy-3",
            "resource": {
                "resourceType": "AllergyIntolerance",
                "id": "allergy-3",
                "patient": {
                    "reference": "Patient/patient-3"
                },
                "reaction": [
                    {
                        "manifestation": [
                            {
                                "text": "Itching"
                            }
                        ]
                    }
                ],
                "code": {
                    "coding": [
                        {
                            "system": "http://snomed.info/allergen-code",
                            "code": "300916003",
                            "display": "Latex"
                        }
                    ]
                }
            }
        },
        {
            "fullUrl": "ServiceRequest/sr-3",
            "resource": {
                "resourceType": "ServiceRequest",
                "id": "sr-3",
                "identifier": [
                    {
                        "system": "http://hospital.smarthealthit.org/placer-order-ids",
                        "value": "sr-3003"
                    }
                ],
                "status": "active",
                "intent": "order",
                "subject": {
                    "reference": "Patient/patient-3"
                },
                "encounter": {
                    "reference": "Encounter/encounter-3"
                },
                "requester": {
                    "reference": "Practitioner/doctor-3"
                },
                "performer": {
                    "reference": "Organization/hospital-3"
                },
                "specimen": [
                    {
                        "reference": "Specimen/specimen-3"
                    }
                ],
                "code": {
                    "coding": [
                        {
                            "system": "http://snomed.info/exam-code",
                            "code": "DERM-PATH",
                            "display": "Dermatopathology examination"
                        }
                    ]
                },
                "quantityQuantity": {
                    "value": 1
                }
            }
        },
        {
            "fullUrl": "Condition/condition-3",
            "resource": {
                "resourceType": "Condition",
                "id": "condition-3",
                "identifier": [
                    {
                        "system": "http://hospital.smarthealthit.org/diagnosis-ids",
                        "value": "cond-2003"
                    }
                ],
                "clinicalStatus": "active",
                "subject": {
                    "reference": "Patient/patient-3"
                },
                "severity": {
                    "coding": [
                        {
                            "system": "http://snomed.info/sct",
                            "code": "44054006",
                            "display": "Severe"
                        }
                    ],
                    "text": "Type 2 Diabetes"
                },
                "category": {
                    "coding": [
                        {
                            "system": "http://snomed.info/pathologytype",
                            "code": "394577000",
                            "display": "Main condition"
                        }
                    ],
                    "text": "Type 2 Diabetes"
                },
                "code": {
                    "coding": [
                        {
                            "system": "http://snomed.info/pathologycode",
                            "code": "44054006",
                            "display": "Melanoma"
                        }
                    ]
                }
            }
        },
        {
            "fullUrl": "Specimen/specimen-3",
            "resource": {
                "resourceType": "Specimen",
                "id": "specimen-3",
                "identifier": [
                    {
                        "system": "http://hospital.smarthealthit.org/placer-order-ids",
                        "value": "spec-1003"
                    }
                ],
                "subject": {
                    "reference": "Patient/patient-3"
                },
                "type": {
                    "coding": [
                        {
                            "system": "http://snomed.info/specimen-code",
                            "code": "SKN",
                            "display": "Skin biopsy"
                        }
                    ]
                },
                "collection": {
                    "collectedDateTime": "2025-09-20T11:54:22.250315"
                }
            }
        },
        {
            "fullUrl": "Organization/hospital-3",
            "resource": {
                "resourceType": "Organization",
                "id": "hospital-3",
                "name": "Texas Oncology Center",
                "endpoint": {
                    "reference": "Endpoint/endpoint-3"
                }
            }
        },
        {
            "fullUrl": "Practitioner/doctor-3",
            "resource": {
                "resourceType": "Practitioner",
                "id": "doctor-3",
                "gender": "Female",
                "active": "true",
                "name": [
                    {
                        "use": "official",
                        "family": "Miller",
                        "given": [
                            "Sarah"
                        ]
                    }
                ],
                "address": [
                    {
                        "use": "home",
                        "type": "both",
                        "text": "987 Oak Place, Austin, TX 78701",
                        "line": [
                            "987 Oak Place"
                        ],
                        "city": "Austin",
                        "state": "TX",
                        "postalCode": "78701"
                    }
                ],
                "telecom": [
                    {
                        "system": "phone",
                        "value": "555-444-5555",
                        "use": "mobile"
                    }
                ]
            }
        },
        {
            "fullUrl": "Patient/patient-3",
            "resource": {
                "resourceType": "Patient",
                "id": "patient-3",
                "gender": "Male",
                "active": "true",
                "birthDate": "1992-07-20",
                "name": [
                    {
                        "use": "official",
                        "family": "Brown",
                        "given": [
                            "Michael"
                        ]
                    }
                ],
                "telecom": [
                    {
                        "system": "phone",
                        "value": "555-222-3333",
                        "use": "mobile"
                    }
                ],
                "address": [
                    {
                        "use": "home",
                        "type": "both",
                        "text": "789 Pine St, Houston, TX 77001",
                        "line": [
                            "789 Pine St"
                        ],
                        "city": "Houston",
                        "state": "TX",
                        "postalCode": "77001"
                    }
                ],
                "identifier": [
                    {
                        "use": "usual",
                        "type": {
                            "coding": [
                                {
                                    "system": "http://terminology.hl7.org/CodeSystem/v2-0203",
                                    "code": "MR"
                                }
                            ]
                        },
                        "system": "urn:oid:1.2.36.146.595.217.0.1",
                        "value": "pat-1003",
                        "period": {
                            "start": "2001-05-06"
                        },
                        "assigner": {
                            "display": "Acme Healthcare"
                        }
                    }
                ]
            }
        },
        {
            "fullUrl": "Endpoint/endpoint-3",
            "resource": {
                "resourceType": "Endpoint",
                "id": "endpoint-3",
                "status": "active",
                "connectionType": {
                    "system": "http://terminology.hl7.org/CodeSystem/endpoint-connection-type",
                    "code": "hl7-fhir-rest"
                },
                "address": "https://acme.example.org/fhir"
            }
        }
    ]
}