{
    "resourceType": "Bundle",
    "id": "bundle-1",
    "type": "message",
    "timestamp": "2025-09-20T11:54:22.223048",
    "entry": [
        {
            "fullUrl": "MessageHeader/msg-1",
            "resource": {
                "resourceType": "MessageHeader",
                "id": "msg-1",
                "eventCoding": {
                    "system": "http://hl7.org/fhir/message-events",
                    "code": "exam-request"
                },
                "source": {
                    "name": "NYGH Rheumatology System",
                    "endpoint": "https://acme.example.org/fhir"
                },
                "focus": [
                    {
                        "reference": "Encounter/encounter-1"
                    },
                    {
                        "reference": "AllergyIntolerance/allergy-1"
                    }
                ]
            }
        },
        {
            "fullUrl": "Encounter/encounter-1",
            "resource": {
                "resourceType": "Encounter",
                "id": "encounter-1",
                "status": "planned",
                "basedOn": [
                    {
                        "reference": "ServiceRequest/sr-1"
                    }
                ],
                "subject": {
                    "reference": "Patient/patient-1"
                },
                "diagnosis": [
                    {
                        "condition": {
                            "reference": "Condition/condition-1"
                        }
                    }
                ]
            }
        },
        {
            "fullUrl": "AllergyIntolerance/allergy-1",
            "resource": {
                "resourceType": "AllergyIntolerance",
                "id": "allergy-1",
                "patient": {
                    "reference": "Patient/patient-1"
                },
                "reaction": [
                    {
                        "manifestation": [
                            {
                                "text": "Rash"
                            }
                        ]
                    }
                ],
                "code": {
                    "coding": [
                        {
                            "system": "http://snomed.info/allergen-code",
                            "code": "29471-3",
                            "display": "Penicillin"
                        }
                    ]
                }
            }
        },
        {
            "fullUrl": "ServiceRequest/sr-1",
            "resource": {
                "resourceType": "ServiceRequest",
                "id": "sr-1",
                "identifier": [
                    {
                        "system": "http://hospital.smarthealthit.org/placer-order-ids",
                        "value": "sr-3001"
                    }
                ],
                "status": "active",
                "intent": "order",
                "subject": {
                    "reference": "Patient/patient-1"
                },
                "encounter": {
                    "reference": "Encounter/encounter-1"
                },
                "requester": {
                    "reference": "Practitioner/doctor-1"
                },
                "performer": {
                    "reference": "Organization/hospital-1"
                },
                "specimen": [
                    {
                        "reference": "Specimen/specimen-1"
                    }
                ],
                "code": {
                    "coding": [
                        {
                            "system": "http://snomed.info/exam-code",
                            "code": "CRP",
                            "display": "C-reactive protein test"
                        }
                    ]
                },
                "quantityQuantity": {
                    "value": 1
                }
            }
        },
        {
            "fullUrl": "Condition/condition-1",
            "resource": {
                "resourceType": "Condition",
                "id": "condition-1",
                "identifier": [
                    {
                        "system": "http://hospital.smarthealthit.org/diagnosis-ids",
                        "value": "cond-2001"
                    }
                ],
                "clinicalStatus": "active",
                "subject": {
                    "reference": "Patient/patient-1"
                },
                "severity": {
                    "coding": [
                        {
                            "system": "http://snomed.info/sct",
                            "code": "44054006",
                            "display": "Severe"
                        }
                    ],
                    "text": "Type 2 Diabetes"
                },
                "category": {
                    "coding": [
                        {
                            "system": "http://snomed.info/pathologytype",
                            "code": "394577000",
                            "display": "Main condition"
                        }
                    ],
                    "text": "Type 2 Diabetes"
                },
                "code": {
                    "coding": [
                        {
                            "system": "http://snomed.info/pathologycode",
                            "code": "44054006",
                            "display": "Rheumatoid arthritis"
                        }
                    ]
                }
            }
        },
        {
            "fullUrl": "Specimen/specimen-1",
            "resource": {
                "resourceType": "Specimen",
                "id": "specimen-1",
                "identifier": [
                    {
                        "system": "http://hospital.smarthealthit.org/placer-order-ids",
                        "value": "spec-1001"
                    }
                ],
                "subject": {
                    "reference": "Patient/patient-1"
                },
                "type": {
                    "coding": [
                        {
                            "system": "http://snomed.info/specimen-code",
                            "code": "BLD",
                            "display": "Blood sample"
                        }
                    ]
                },
                "collection": {
                    "collectedDateTime": "2025-09-20T11:54:22.223034"
                }
            }
        },
        {
            "fullUrl": "Organization/hospital-1",
            "resource": {
                "resourceType": "Organization",
                "id": "hospital-1",
                "name": "New York General Hospital",
                "endpoint": {
                    "reference": "Endpoint/endpoint-1"
                }
            }
        },
        {
            "fullUrl": "Practitioner/doctor-1",
            "resource": {
                "resourceType": "Practitioner",
                "id": "doctor-1",
                "gender": "Female",
                "active": "true",
                "name": [
                    {
                        "use": "official",
                        "family": "Smith",
                        "given": [
                            "Alice"
                        ]
                    }
                ],
                "address": [
                    {
                        "use": "home",
                        "type": "both",
                        "text": "456 Elm St, New York, NY 10204",
                        "line": [
                            "456 Elm St"
                        ],
                        "city": "New York",
                        "state": "NY",
                        "postalCode": "10204"
                    }
                ],
                "telecom": [
                    {
                        "system": "phone",
                        "value": "555-123-4567",
                        "use": "mobile"
                    }
                ]
            }
        },
        {
            "fullUrl": "Patient/patient-1",
            "resource": {
                "resourceType": "Patient",
                "id": "patient-1",
                "gender": "Male",
                "active": "true",
                "birthDate": "1990-01-01",
                "name": [
                    {
                        "use": "official",
                        "family": "Doe",
                        "given": [
                            "John"
                        ]
                    }
                ],
                "telecom": [
                    {
                        "system": "phone",
                        "value": "555-555-5555",
                        "use": "mobile"
                    }
                ],
                "address": [
                    {
                        "use": "home",
                        "type": "both",
                        "text": "123 Main St, New York, NY 10001",
                        "line": [
                            "123 Main St"
                        ],
                        "city": "New York",
                        "state": "NY",
                        "postalCode": "10001"
                    }
                ],
                "identifier": [
                    {
                        "use": "usual",
                        "type": {
                            "coding": [
                                {
                                    "system": "http://terminology.hl7.org/CodeSystem/v2-0203",
                                    "code": "MR"
                                }
                            ]
                        },
                        "system": "urn:oid:1.2.36.146.595.217.0.1",
                        "value": "pat-1001",
                        "period": {
                            "start": "2001-05-06"
                        },
                        "assigner": {
                            "display": "Acme Healthcare"
                        }
                    }
                ]
            }
        },
        {
            "fullUrl": "Endpoint/endpoint-1",
            "resource": {
                "resourceType": "Endpoint",
                "id": "endpoint-1",
                "status": "active",
                "connectionType": {
                    "system": "http://terminology.hl7.org/CodeSystem/endpoint-connection-type",
                    "code": "hl7-fhir-rest"
                },
                "address": "https://acme.example.org/fhir"
            }
        }
    ]
}