{
    "resourceType": "Bundle",
    "id": "bundle-1",
    "type": "message",
    "timestamp": "2025-09-20T11:54:22.328572",
    "entry": [
        {
            "fullUrl": "MessageHeader/msg-1",
            "resource": {
                "resourceType": "MessageHeader",
                "id": "msg-1",
                "eventCoding": {
                    "system": "http://hl7.org/fhir/message-events",
                    "code": "medical-prescription"
                },
                "source": {
                    "name": "NYGH Rheumatology System",
                    "endpoint": "https://acme.example.org/fhir"
                },
                "focus": [
                    {
                        "reference": "Composition/comp-1"
                    }
                ]
            }
        },
        {
            "fullUrl": "Practitioner/doctor-1",
            "resource": {
                "resourceType": "Practitioner",
                "id": "doctor-1",
                "gender": "Female",
                "active": "true",
                "name": [
                    {
                        "use": "official",
                        "family": "Smith",
                        "given": [
                            "Alice"
                        ]
                    }
                ],
                "address": [
                    {
                        "use": "home",
                        "type": "both",
                        "text": "456 Elm St, New York, NY 10204",
                        "line": [
                            "456 Elm St"
                        ],
                        "city": "New York",
                        "state": "NY",
                        "postalCode": "10204"
                    }
                ],
                "telecom": [
                    {
                        "system": "phone",
                        "value": "555-123-4567",
                        "use": "mobile"
                    }
                ]
            }
        },
        {
            "fullUrl": "Patient/patient-1",
            "resource": {
                "resourceType": "Patient",
                "id": "patient-1",
                "gender": "Male",
                "active": "true",
                "birthDate": "1990-01-01",
                "name": [
                    {
                        "use": "official",
                        "family": "Doe",
                        "given": [
                            "John"
                        ]
                    }
                ],
                "telecom": [
                    {
                        "system": "phone",
                        "value": "555-555-5555",
                        "use": "mobile"
                    }
                ],
                "address": [
                    {
                        "use": "home",
                        "type": "both",
                        "text": "123 Main St, New York, NY 10001",
                        "line": [
                            "123 Main St"
                        ],
                        "city": "New York",
                        "state": "NY",
                        "postalCode": "10001"
                    }
                ],
                "identifier": [
                    {
                        "use": "usual",
                        "type": {
                            "coding": [
                                {
                                    "system": "http://terminology.hl7.org/CodeSystem/v2-0203",
                                    "code": "MR"
                                }
                            ]
                        },
                        "system": "urn:oid:1.2.36.146.595.217.0.1",
                        "value": "pat-1001",
                        "period": {
                            "start": "2001-05-06"
                        },
                        "assigner": {
                            "display": "Acme Healthcare"
                        }
                    }
                ]
            }
        },
        {
            "fullUrl": "Composition/comp-1",
            "resource": {
                "resourceType": "Composition",
                "id": "comp-1",
                "status": "final",
                "identifier": [
                    {
                        "system": "http://hospital.smarthealthit.org/compose-ids",
                        "value": "comp-3001"
                    }
                ],
                "code": {
                    "coding": [
                        {
                            "system": "http://loinc.org",
                            "code": "57833-6",
                            "display": "Prescription for medication"
                        },
                        {
                            "system": "http://snomed.info/sct",
                            "code": "761938008",
                            "display": "Medicinal prescription record (record artifact)"
                        }
                    ]
                },
                "subject": {
                    "reference": "Patient/patient-1"
                },
                "author": {
                    "reference": "Practitioner/doctor-1"
                },
                "date": "2025-12-25T09:45:00Z",
                "section": [
                    {
                        "code": {
                            "coding": [
                                {
                                    "system": "http://loinc.org",
                                    "code": "57828-6",
                                    "display": "Prescription list"
                                }
                            ]
                        },
                        "entry": [
                            {
                                "reference": "MedicationRequest/medreq-1"
                            }
                        ]
                    }
                ]
            }
        },
        {
            "fullUrl": "MedicationRequest/medreq-1",
            "resource": {
                "resourceType": "MedicationRequest",
                "id": "medreq-1",
                "status": "active",
                "intent": "order",
                "medication": [
                    {
                        "resourceType": "Medication",
                        "id": "med-1-1",
                        "code": {
                            "coding": [
                                {
                                    "system": "http://medication-code",
                                    "code": "123456",
                                    "display": "Methotrexate 10mg tablet"
                                }
                            ]
                        },
                        "amount": {
                            "numerator": {
                                "value": 10,
                                "unit": "mg",
                                "system": "http://snomed.info/sct",
                                "code": "123456"
                            },
                            "denominator": {
                                "value": 1,
                                "unit": "tablet",
                                "system": "http://snomed.info/sct",
                                "code": "123456"
                            }
                        }
                    },
                    {
                        "resourceType": "Medication",
                        "id": "med-1-2",
                        "code": {
                            "coding": [
                                {
                                    "system": "http://medication-code",
                                    "code": "789101",
                                    "display": "Folic acid 5mg tablet"
                                }
                            ]
                        },
                        "amount": {
                            "numerator": {
                                "value": 5,
                                "unit": "mg",
                                "system": "http://snomed.info/sct",
                                "code": "789101"
                            },
                            "denominator": {
                                "value": 1,
                                "unit": "tablet",
                                "system": "http://snomed.info/sct",
                                "code": "789101"
                            }
                        }
                    }
                ],
                "subject": {
                    "reference": "Patient/patient-1"
                },
                "performer": [
                    {
                        "reference": "Practitioner/doctor-1"
                    }
                ],
                "dosageInstruction": [
                    {
                        "text": "Take once a week with water after meal",
                        "timing": {
                            "repeat": {
                                "frequency": 1,
                                "period": 7,
                                "periodUnit": "days"
                            }
                        },
                        "method": {
                            "coding": [
                                {
                                    "system": "http://snomed.info/sct",
                                    "code": "421661004",
                                    "display": "Oral"
                                }
                            ]
                        }
                    }
                ]
            }
        }
    ]
}