{
    "resourceType": "Bundle",
    "id": "bundle-5",
    "type": "message",
    "timestamp": "2025-09-20T11:54:22.386692",
    "entry": [
        {
            "fullUrl": "MessageHeader/msg-5",
            "resource": {
                "resourceType": "MessageHeader",
                "id": "msg-5",
                "eventCoding": {
                    "system": "http://hl7.org/fhir/message-events",
                    "code": "medical-prescription"
                },
                "source": {
                    "name": "CH Endocrinology System",
                    "endpoint": "https://acme.example.org/fhir"
                },
                "focus": [
                    {
                        "reference": "Composition/comp-5"
                    }
                ]
            }
        },
        {
            "fullUrl": "Practitioner/doctor-5",
            "resource": {
                "resourceType": "Practitioner",
                "id": "doctor-5",
                "gender": "Female",
                "active": "true",
                "name": [
                    {
                        "use": "official",
                        "family": "Rodriguez",
                        "given": [
                            "Linda"
                        ]
                    }
                ],
                "address": [
                    {
                        "use": "home",
                        "type": "both",
                        "text": "333 Cedar St, New York, NY 10021",
                        "line": [
                            "333 Cedar St"
                        ],
                        "city": "New York",
                        "state": "NY",
                        "postalCode": "10021"
                    }
                ],
                "telecom": [
                    {
                        "system": "phone",
                        "value": "555-888-9999",
                        "use": "mobile"
                    }
                ]
            }
        },
        {
            "fullUrl": "Patient/patient-5",
            "resource": {
                "resourceType": "Patient",
                "id": "patient-5",
                "gender": "Male",
                "active": "true",
                "birthDate": "1978-09-12",
                "name": [
                    {
                        "use": "official",
                        "family": "Garcia",
                        "given": [
                            "Christopher"
                        ]
                    }
                ],
                "telecom": [
                    {
                        "system": "phone",
                        "value": "555-666-7777",
                        "use": "mobile"
                    }
                ],
                "address": [
                    {
                        "use": "home",
                        "type": "both",
                        "text": "222 Maple St, New York, NY 10001",
                        "line": [
                            "222 Maple St"
                        ],
                        "city": "New York",
                        "state": "NY",
                        "postalCode": "10001"
                    }
                ],
                "identifier": [
                    {
                        "use": "usual",
                        "type": {
                            "coding": [
                                {
                                    "system": "http://terminology.hl7.org/CodeSystem/v2-0203",
                                    "code": "MR"
                                }
                            ]
                        },
                        "system": "urn:oid:1.2.36.146.595.217.0.1",
                        "value": "pat-1005",
                        "period": {
                            "start": "2001-05-06"
                        },
                        "assigner": {
                            "display": "Acme Healthcare"
                        }
                    }
                ]
            }
        },
        {
            "fullUrl": "Composition/comp-5",
            "resource": {
                "resourceType": "Composition",
                "id": "comp-5",
                "status": "final",
                "identifier": [
                    {
                        "system": "http://hospital.smarthealthit.org/compose-ids",
                        "value": "comp-3005"
                    }
                ],
                "code": {
                    "coding": [
                        {
                            "system": "http://loinc.org",
                            "code": "57833-6",
                            "display": "Prescription for medication"
                        },
                        {
                            "system": "http://snomed.info/sct",
                            "code": "761938008",
                            "display": "Medicinal prescription record (record artifact)"
                        }
                    ]
                },
                "subject": {
                    "reference": "Patient/patient-5"
                },
                "author": {
                    "reference": "Practitioner/doctor-5"
                },
                "date": "2025-12-29T09:40:00Z",
                "section": [
                    {
                        "code": {
                            "coding": [
                                {
                                    "system": "http://loinc.org",
                                    "code": "57828-6",
                                    "display": "Prescription list"
                                }
                            ]
                        },
                        "entry": [
                            {
                                "reference": "MedicationRequest/medreq-5"
                            }
                        ]
                    }
                ]
            }
        },
        {
            "fullUrl": "MedicationRequest/medreq-5",
            "resource": {
                "resourceType": "MedicationRequest",
                "id": "medreq-5",
                "status": "active",
                "intent": "order",
                "medication": [
                    {
                        "resourceType": "Medication",
                        "id": "med-5-1",
                        "code": {
                            "coding": [
                                {
                                    "system": "http://medication-code",
                                    "code": "667788",
                                    "display": "Insulin glargine 100 units/ml injection"
                                }
                            ]
                        },
                        "amount": {
                            "numerator": {
                                "value": 20,
                                "unit": "units",
                                "system": "http://snomed.info/sct",
                                "code": "667788"
                            },
                            "denominator": {
                                "value": 1,
                                "unit": "injection",
                                "system": "http://snomed.info/sct",
                                "code": "667788"
                            }
                        }
                    },
                    {
                        "resourceType": "Medication",
                        "id": "med-5-2",
                        "code": {
                            "coding": [
                                {
                                    "system": "http://medication-code",
                                    "code": "990011",
                                    "display": "Metformin 500mg tablet"
                                }
                            ]
                        },
                        "amount": {
                            "numerator": {
                                "value": 500,
                                "unit": "mg",
                                "system": "http://snomed.info/sct",
                                "code": "990011"
                            },
                            "denominator": {
                                "value": 1,
                                "unit": "tablet",
                                "system": "http://snomed.info/sct",
                                "code": "990011"
                            }
                        }
                    }
                ],
                "subject": {
                    "reference": "Patient/patient-5"
                },
                "performer": [
                    {
                        "reference": "Practitioner/doctor-5"
                    }
                ],
                "dosageInstruction": [
                    {
                        "text": "Inject once daily at bedtime",
                        "timing": {
                            "repeat": {
                                "frequency": 1,
                                "period": 24,
                                "periodUnit": "h"
                            }
                        },
                        "method": {
                            "coding": [
                                {
                                    "system": "http://snomed.info/sct",
                                    "code": "421661004",
                                    "display": "Subcutaneous"
                                }
                            ]
                        }
                    }
                ]
            }
        }
    ]
}