{
    "resourceType": "Bundle",
    "id": "bundle-2",
    "type": "message",
    "timestamp": "2025-09-20T11:54:22.342617",
    "entry": [
        {
            "fullUrl": "MessageHeader/msg-2",
            "resource": {
                "resourceType": "MessageHeader",
                "id": "msg-2",
                "eventCoding": {
                    "system": "http://hl7.org/fhir/message-events",
                    "code": "medical-prescription"
                },
                "source": {
                    "name": "CHI Cardiology System",
                    "endpoint": "https://acme.example.org/fhir"
                },
                "focus": [
                    {
                        "reference": "Composition/comp-2"
                    }
                ]
            }
        },
        {
            "fullUrl": "Practitioner/doctor-2",
            "resource": {
                "resourceType": "Practitioner",
                "id": "doctor-2",
                "gender": "Male",
                "active": "true",
                "name": [
                    {
                        "use": "official",
                        "family": "Johnson",
                        "given": [
                            "Mark"
                        ]
                    }
                ],
                "address": [
                    {
                        "use": "home",
                        "type": "both",
                        "text": "789 Anthony St, San Francisco, CA 94101",
                        "line": [
                            "789 Anthony St"
                        ],
                        "city": "San Francisco",
                        "state": "CA",
                        "postalCode": "94101"
                    }
                ],
                "telecom": [
                    {
                        "system": "phone",
                        "value": "555-111-2222",
                        "use": "mobile"
                    }
                ]
            }
        },
        {
            "fullUrl": "Patient/patient-2",
            "resource": {
                "resourceType": "Patient",
                "id": "patient-2",
                "gender": "Female",
                "active": "true",
                "birthDate": "1985-03-15",
                "name": [
                    {
                        "use": "official",
                        "family": "Williams",
                        "given": [
                            "Jane"
                        ]
                    }
                ],
                "telecom": [
                    {
                        "system": "phone",
                        "value": "555-000-0000",
                        "use": "mobile"
                    }
                ],
                "address": [
                    {
                        "use": "home",
                        "type": "both",
                        "text": "456 Elm St, Los Angeles, CA 90001",
                        "line": [
                            "456 Elm St"
                        ],
                        "city": "Los Angeles",
                        "state": "CA",
                        "postalCode": "90001"
                    }
                ],
                "identifier": [
                    {
                        "use": "usual",
                        "type": {
                            "coding": [
                                {
                                    "system": "http://terminology.hl7.org/CodeSystem/v2-0203",
                                    "code": "MR"
                                }
                            ]
                        },
                        "system": "urn:oid:1.2.36.146.595.217.0.1",
                        "value": "pat-1002",
                        "period": {
                            "start": "2001-05-06"
                        },
                        "assigner": {
                            "display": "Acme Healthcare"
                        }
                    }
                ]
            }
        },
        {
            "fullUrl": "Composition/comp-2",
            "resource": {
                "resourceType": "Composition",
                "id": "comp-2",
                "status": "final",
                "identifier": [
                    {
                        "system": "http://hospital.smarthealthit.org/compose-ids",
                        "value": "comp-3002"
                    }
                ],
                "code": {
                    "coding": [
                        {
                            "system": "http://loinc.org",
                            "code": "57833-6",
                            "display": "Prescription for medication"
                        },
                        {
                            "system": "http://snomed.info/sct",
                            "code": "761938008",
                            "display": "Medicinal prescription record (record artifact)"
                        }
                    ]
                },
                "subject": {
                    "reference": "Patient/patient-2"
                },
                "author": {
                    "reference": "Practitioner/doctor-2"
                },
                "date": "2025-12-26T10:40:00Z",
                "section": [
                    {
                        "code": {
                            "coding": [
                                {
                                    "system": "http://loinc.org",
                                    "code": "57828-6",
                                    "display": "Prescription list"
                                }
                            ]
                        },
                        "entry": [
                            {
                                "reference": "MedicationRequest/medreq-2"
                            }
                        ]
                    }
                ]
            }
        },
        {
            "fullUrl": "MedicationRequest/medreq-2",
            "resource": {
                "resourceType": "MedicationRequest",
                "id": "medreq-2",
                "status": "active",
                "intent": "order",
                "medication": [
                    {
                        "resourceType": "Medication",
                        "id": "med-2-1",
                        "code": {
                            "coding": [
                                {
                                    "system": "http://medication-code",
                                    "code": "223344",
                                    "display": "Lisinopril 10mg tablet"
                                }
                            ]
                        },
                        "amount": {
                            "numerator": {
                                "value": 10,
                                "unit": "mg",
                                "system": "http://snomed.info/sct",
                                "code": "223344"
                            },
                            "denominator": {
                                "value": 1,
                                "unit": "tablet",
                                "system": "http://snomed.info/sct",
                                "code": "223344"
                            }
                        }
                    },
                    {
                        "resourceType": "Medication",
                        "id": "med-2-2",
                        "code": {
                            "coding": [
                                {
                                    "system": "http://medication-code",
                                    "code": "556677",
                                    "display": "Hydrochlorothiazide 25mg tablet"
                                }
                            ]
                        },
                        "amount": {
                            "numerator": {
                                "value": 25,
                                "unit": "mg",
                                "system": "http://snomed.info/sct",
                                "code": "556677"
                            },
                            "denominator": {
                                "value": 1,
                                "unit": "tablet",
                                "system": "http://snomed.info/sct",
                                "code": "556677"
                            }
                        }
                    }
                ],
                "subject": {
                    "reference": "Patient/patient-2"
                },
                "performer": [
                    {
                        "reference": "Practitioner/doctor-2"
                    }
                ],
                "dosageInstruction": [
                    {
                        "text": "Take one tablet daily in the morning",
                        "timing": {
                            "repeat": {
                                "frequency": 1,
                                "period": 24,
                                "periodUnit": "h"
                            }
                        },
                        "method": {
                            "coding": [
                                {
                                    "system": "http://snomed.info/sct",
                                    "code": "421661004",
                                    "display": "Oral"
                                }
                            ]
                        }
                    }
                ]
            }
        }
    ]
}